Folder: CEE374_Lab4

File: Data_Raw_Pitch_Angles 8 to 90.csv
8 degree,,,15 degree,,,45 degree,,,90 degree,,
Extension (mm),Load (N),N.mm,Extension (mm),Load (N),N.mm,Extension (mm),Load (N),N.mm,Extension (mm),Load (N),N.mm
0.00031,2.4,0.00096,0.00002,4.17,0.001668,0.00085,4.95,0.00198,0.00086,4.88,0.001952
0.00351,4.87,0.001948,0.00322,6.49,0.002596,0.00415,7.49,0.002996,0.00426,8.73,0.003492
0.00681,7.8,0.00312,0.00642,9.21,0.003684,0.00775,10.64,0.004256,0.00746,12.65,0.00506
0.01021,11.04,0.004416,0.00982,12.35,0.006175,0.01105,13.98,0.005592,0.01066,17.05,0.00682
0.01361,14.61,0.007305,0.01342,15.46,0.006184,0.01425,17.44,0.006976,0.01396,21.83,0.008732
0.01691,17.98,0.007192,0.01662,18.44,0.00922,0.01745,20.95,0.00838,0.01736,27.24,0.01362
0.02021,21.3,0.00852,0.01992,21.56,0.008624,0.02085,24.67,0.009868,0.02096,32.72,0.013088
0.02341,24.96,0.009984,0.02322,24.82,0.009928,0.02435,28.53,0.011412,0.02406,37.69,0.015076
0.02681,28.68,0.01434,0.02652,28.21,0.011284,0.02765,32.23,0.012892,0.02736,42.9,0.01287
0.03031,32.28,0.012912,0.02992,31.58,0.012632,0.03085,35.83,0.014332,0.03056,47.85,0.01914
0.03361,34.69,0.013876,0.03332,35.15,0.01406,0.03405,39.39,0.015756,0.03406,53.22,0.021288
0.03681,37.88,0.015152,0.03652,38.4,0.01536,0.03745,43.4,0.01736,0.03756,58.4,0.02336
0.04011,41.28,0.016512,0.03982,42.02,0.016808,0.04095,47.54,0.019016,0.04076,63.05,0.02522
0.04341,44.09,0.022045,0.04312,45.48,0.018192,0.04435,51.23,0.020492,0.04396,67.43,0.026972
0.04701,38.95,0.01558,0.04662,49.36,0.019744,0.04755,54.82,0.021928,0.04716,72.39,0.028956
0.05021,42.7,0.01708,0.05002,52.94,0.021176,0.05075,58.42,0.023368,0.05056,77.24,0.030896
0.05341,46.02,0.018408,0.05312,55.83,0.027915,0.05415,62.14,0.024856,0.05406,82.54,0.033016
0.05671,48.65,0.01946,0.05642,58.96,0.023584,0.05765,66.07,0.026428,0.05726,87.26,0.034904
0.06011,51.59,0.020636,0.05972,61.83,0.024732,0.06105,69.72,0.027888,0.06046,91.92,0.036768
0.06361,54.88,0.02744,0.06322,65.12,0.03256,0.06425,73.03,0.029212,0.06366,95.88,0.038352
0.06701,57.75,0.017325,0.06662,68.05,0.02722,0.06755,76.61,0.030644,0.06706,99.48,0.039792
0.07011,60.37,0.024148,0.06992,70.69,0.021207,0.07085,80.47,0.032188,0.07056,102.91,0.041164
0.07341,63.5,0.0254,0.07312,73.51,0.036755,0.07425,84.26,0.04213,0.07386,104.71,0.041884
0.07671,66.08,0.03304,0.07652,76.44,0.030576,0.07775,87.78,0.035112,0.07706,108.04,0.043216
0.08021,68.5,0.03425,0.08002,79.52,0.031808,0.08095,90.61,0.027183,0.08026,112.37,0.044948
0.08361,69.52,0.027808,0.08342,82.52,0.033008,0.08415,92.12,0.036848,0.08366,116.61,0.046644
0.08681,72.22,0.028888,0.08662,85.33,0.034132,0.08745,93.53,0.037412,0.08716,120.83,0.048332
0.09011,74.53,0.029812,0.08992,88.2,0.03528,0.09085,96.21,0.038484,0.09046,123.54,0.037062
0.09341,75.98,0.030392,0.09322,91.05,0.03642,0.09425,98.81,0.039524,0.09356,126.53,0.050612
0.09691,77.26,0.03863,0.09672,93.97,0.046985,0.09745,99.58,0.039832,0.09686,130.69,0.052276
0.10031,77.95,0.03118,0.10022,91.04,0.036416,0.10065,101.46,0.05073,0.10016,134.65,0.067325
0.10351,80.21,0.032084,0.10342,94.66,0.037864,0.10395,103.73,0.041492,0.10376,138.23,0.055292
0.10671,82.52,0.04126,0.10662,97.54,0.04877,0.10745,105.87,0.042348,0.10706,141.69,0.056676
0.11001,84.77,0.042385,0.10992,100.22,0.05011,0.11085,105.16,0.042064,0.11026,144.23,0.057692
0.11351,86.08,0.04304,0.11342,103.65,0.04146,0.11415,92.13,0.036852,0.11346,146.56,0.07328
0.11701,81.28,0.032512,0.11692,106.75,0.032025,0.11735,87.58,0.035032,0.11696,147.71,0.059084
0.12021,82.53,0.033012,0.12002,108.74,0.043496,0.12065,81.55,0.03262,0.12046,148.35,0.05934
0.12341,85.7,0.03428,0.12322,111.41,0.044564,0.12405,30.85,0.015425,0.12386,94.87,0.037948
0.12671,88.53,0.044265,0.12652,114.19,0.045676,0.12755,14.29,0.005716,0.12706,93.85,0.03754
0.13021,91.11,0.036444,0.13002,107.04,0.042816,0.13085,13.02,0.005208,0.13026,89.69,0.035876
0.13361,92.99,0.037196,0.13342,108.56,0.043424,0.13405,11.77,0.004708,0.13366,8.37,0.003348
0.13681,95.7,0.03828,0.13662,112.1,0.04484,0.13735,10.88,0.004352,0.13726,7.33,0.002932
0.14011,97.81,0.039124,0.13982,115.12,0.05756,0.14075,9.92,0.003968,0.14056,6.71,0.002684
0.14331,99.9,0.04995,0.14312,117.78,0.047112,0.14425,8.64,0.003456,0.14386,5.95,0.00238
0.14681,100.94,0.05047,0.14652,120.29,0.060145,0.14755,7.64,0.003056,0.14716,5.43,0.002172
0.15021,98.07,0.049035,0.15002,122.58,0.049032,0.15075,6.93,0.002772,0.15046,5.11,0.002044
0.15341,100.47,0.050235,0.15322,124.71,0.049884,0.15395,6.36,0.00318,0.15406,4.62,0.001848
0.15671,102.72,0.041088,0.15642,126.53,0.050612,0.15745,6.08,0.002432,0.15746,4.46,0.001784
0.16001,104.64,0.041856,0.15962,128.46,0.051384,0.16095,5.71,0.002284,0.16066,4.04,0.001616
0.16351,107.13,0.042852,0.16302,130.71,0.052284,0.16425,5.35,0.00214,0.16406,3.84,0.001536
0.16691,109.18,0.043672,0.16652,133.24,0.053296,0.16745,5,0.002,0.16736,3.51,0.001404
0.17021,108.24,0.043296,0.16982,134.95,0.05398,0.17075,4.61,0.001844,0.17086,3.23,0.001615
0.17341,109.65,0.04386,0.17302,135.13,0.054052,0.17415,4.41,0.001764,0.17436,3,0.0012
0.17661,110.73,0.055365,0.17612,133.11,0.066555,0.17765,4.23,0.002115,0.17746,2.76,0.001104
0.18011,112.39,0.056195,0.17962,135.47,0.054188,0.18105,4.05,0.00162,0.18076,2.49,0.000996
0.18361,112.75,0.056375,0.18312,132.63,0.053052,0.18425,3.67,0.001835,0.18396,2.34,0.00117
0.18691,112.41,0.044964,0.18642,124.1,0.04964,0.18755,3.52,0.00176,0.18746,1.99,0.000995
0.19011,106.68,0.042672,0.18952,110.47,0.044188,0.19095,1.92,0.00096,0.19096,1.97,0.000788
0.19341,90.47,0.036188,0.19282,75.29,0.030116,0.19455,1.95,0.000975,0.19416,1.87,0.000748
0.19681,94.02,0.037608,0.19612,67.13,0.033565,0.19785,1.83,0.000915,0.19736,1.65,0.00066
0.20031,97.6,0.0488,0.19972,61.2,0.02448,0.20115,1.71,0.000684,,,
0.20361,100.48,0.040192,0.20302,57.79,0.023116,0.20435,1.7,0.00085,,,
0.20681,103.5,0.0414,0.20632,29.8,0.01192,0.20775,1.67,0.000835,,,
0.21001,106.05,0.04242,0.20952,29.54,0.01477,0.21125,1.49,0.000745,,,
0.21341,109,0.0545,0.21292,29.19,0.011676,0.21465,1.45,0.00058,,,
0.21701,111.37,0.044548,0.21642,28.77,0.014385,0.21785,1.36,0.000544,,,
0.22021,113.24,0.045296,0.21982,27.52,0.011008,0.22105,1.18,0.000472,,,
0.22341,114.02,0.045608,0.22302,21.41,0.008564,0.22435,1.14,0.00057,,,
0.22671,114.46,0.045784,0.22632,19.93,0.007972,0.22745,1.04,,,,
0.23011,84.55,0.03382,0.22962,18,0.0072,,,,,,
0.23361,55.87,0.022348,0.23312,16.67,0.008335,,,,,,
0.23691,51.12,0.02556,0.23652,15.76,0.006304,,,,,,
0.24021,39.05,0.01562,0.23972,15.12,0.006048,,,,,,
0.24351,35.35,0.01414,0.24302,14.57,0.007285,,,,,,
0.24681,30.48,0.01524,0.24642,14.09,0.005636,,,,,,
0.25031,27.67,0.013835,0.24992,13.35,0.00534,,,,,,
0.25371,25.63,0.010252,0.25332,12.66,0.005064,,,,,,
0.25691,21.8,0.00872,0.25662,12.1,0.00484,,,,,,
0.26021,18.29,0.007316,0.25982,11.75,0.0047,,,,,,
0.26351,17.06,0.00853,0.26312,11.21,0.004484,,,,,,
0.26701,16.61,0.008305,0.26662,10.65,0.00426,,,,,,
0.27041,15.78,0.006312,0.27002,10.13,0.004052,,,,,,
0.27361,15.39,0.006156,0.27322,9.59,0.003836,,,,,,
0.27691,15.11,0.006044,0.27642,9.29,0.003716,,,,,,
0.28021,14.9,0.00596,0.27972,8.88,0.003552,,,,,,
0.28381,14.63,0.005852,0.28322,8.46,0.003384,,,,,,
0.28711,14.08,0.005632,0.28662,8.17,0.003268,,,,,,
0.29031,13.77,0.005508,0.28992,7.91,0.003164,,,,,,
0.29361,13.5,0.0054,0.29322,7.64,0.003056,,,,,,
0.29691,11.44,0.00572,0.29642,7.52,0.00376,,,,,,
0.30051,9.98,0.003992,0.29992,7.38,0.002952,,,,,,
0.30381,9.52,0.003808,0.30332,6.92,0.00346,,,,,,
0.30701,8.68,0.003472,0.30662,6.89,0.002756,,,,,,
0.31021,8.09,0.004045,0.30982,6.54,0.002616,,,,,,
0.31361,7.82,0.003128,0.31302,5.86,0.002344,,,,,,
0.31711,7.14,0.002856,0.31642,5.96,0.002384,,,,,,
0.32051,6.84,0.002736,0.31992,5.69,0.002845,,,,,,
0.32361,6.58,0.00329,0.32322,5.54,0.002216,,,,,,
0.32691,6.51,0.002604,0.32632,5.26,0.00263,,,,,,
0.33021,5.9,0.00295,0.32962,4.93,0.001972,,,,,,
0.33371,5.93,0.002372,0.33302,4.87,0.001948,,,,,,
0.33721,5.84,0.002336,0.33652,4.59,0.001836,,,,,,
0.34041,5.73,0.002292,0.33972,4.41,0.002205,,,,,,
0.34361,5.35,0.00214,0.34302,4.33,0.001732,,,,,,
0.34681,5.11,0.002555,0.34622,4.01,0.002005,,,,,,
0.35031,5.16,0.002064,0.34972,3.9,0.00156,,,,,,
0.35371,4.99,0.001996,0.35312,3.82,0.00191,,,,,,
0.35691,4.91,0.001964,0.35642,3.52,0.001408,,,,,,
0.36011,4.78,0.001912,0.35962,3.63,0.001452,,,,,,
0.36341,4.82,0.001928,0.36282,3.4,0.0017,,,,,,
0.36681,4.66,0.001864,0.36632,3.28,0.001312,,,,,,
0.37021,4.44,0.001776,0.36982,2.85,0.00114,,,,,,
0.37341,4.34,0.001736,0.37312,3.05,0.00122,,,,,,
0.37651,4.18,0.00209,0.37642,2.75,0.0011,,,,,,
0.37981,2.59,0.001036,0.37952,2.48,0.000992,,,,,,
0.38311,2.1,0.00105,0.38312,2.36,0.000944,,,,,,
0.38671,1.91,0.000764,0.38662,2.29,0.000916,,,,,,
0.39001,1.86,0.000744,0.38982,2.04,0.000816,,,,,,
0.39321,1.77,0.000708,0.39312,2.06,0.000824,,,,,,
0.39641,1.67,0.000668,0.39632,2.22,0.000888,,,,,,
0.39991,1.55,0.00062,0.39962,2.06,0.00103,,,,,,
0.40341,1.64,0.000656,0.40312,1.94,0.00097,,,,,,
0.40651,1.35,0.00054,0.40642,1.86,0.000744,,,,,,
0.40981,1.57,0.000628,0.40972,1.75,0.0007,,,,,,
,,,0.41292,1.88,0.000752,,,,,,
,,,0.41622,1.83,0.000732,,,,,,
,,,0.41972,1.67,0.000835,,,,,,
,,,0.42302,1.61,0.000644,,,,,,
,,,0.42632,1.53,0.000612,,,,,,
,,,0.42942,1.3,,,,,,,